HONO + HV = HO. + NO
! NASA (2006) recommended absorption cross sections. No recommendation on quantum yields.
! IUPAC (2005) recommendation (Data Sheet PNOx1, July, 2001) recommends unit quantum yield for OH + NO.
! (IUPAC recommended absorption cross sections are low resolution, so NASA values are preferred)
!
0.2700 3.700E-20 1.000
0.2720 3.000E-20 1.000
0.2740 2.500E-20 1.000
0.2960 3.260E-21 1.000
0.2970 5.650E-21 1.000
0.2980 5.170E-21 1.000
0.2990 4.290E-21 1.000
0.3000 6.170E-21 1.000
0.3010 6.900E-21 1.000
0.3020 5.790E-21 1.000
0.3030 9.250E-21 1.000
0.3040 1.040E-20 1.000
0.3050 1.570E-20 1.000
0.3060 1.290E-20 1.000
0.3070 9.160E-21 1.000
0.3080 1.450E-20 1.000
0.3090 2.010E-20 1.000
0.3100 1.510E-20 1.000
0.3110 2.070E-20 1.000
0.3120 2.420E-20 1.000
0.3130 2.250E-20 1.000
0.3140 3.350E-20 1.000
0.3150 2.540E-20 1.000
0.3160 1.610E-20 1.000
0.3170 3.210E-20 1.000
0.3180 4.490E-20 1.000
0.3190 3.190E-20 1.000
0.3200 4.660E-20 1.000
0.3210 5.960E-20 1.000
0.3220 4.050E-20 1.000
0.3230 4.560E-20 1.000
0.3240 5.890E-20 1.000
0.3250 4.050E-20 1.000
0.3260 2.650E-20 1.000
0.3265 3.550E-20 1.000
0.3270 6.440E-20 1.000
0.3275 1.026E-19 1.000
0.3280 9.220E-20 1.000
0.3285 6.380E-20 1.000
0.3290 5.200E-20 1.000
0.3295 6.120E-20 1.000
0.3300 9.920E-20 1.000
0.3305 1.506E-19 1.000
0.3310 1.432E-19 1.000
0.3315 9.880E-20 1.000
0.3320 6.940E-20 1.000
0.3325 6.000E-20 1.000
0.3330 6.310E-20 1.000
0.3335 7.110E-20 1.000
0.3340 8.350E-20 1.000
0.3345 8.370E-20 1.000
0.3350 7.710E-20 1.000
0.3355 6.550E-20 1.000
0.3360 5.330E-20 1.000
0.3365 4.360E-20 1.000
0.3370 4.230E-20 1.000
0.3375 5.130E-20 1.000
0.3380 9.380E-20 1.000
0.3385 1.652E-19 1.000
0.3390 1.432E-19 1.000
0.3395 9.960E-20 1.000
0.3400 7.790E-20 1.000
0.3405 8.510E-20 1.000
0.3410 1.613E-19 1.000
0.3415 3.152E-19 1.000
0.3420 2.940E-19 1.000
0.3425 1.847E-19 1.000
0.3430 1.143E-19 1.000
0.3435 8.290E-20 1.000
0.3440 7.590E-20 1.000
0.3445 8.180E-20 1.000
0.3450 8.770E-20 1.000
0.3455 9.100E-20 1.000
0.3460 9.640E-20 1.000
0.3465 8.870E-20 1.000
0.3470 7.800E-20 1.000
0.3475 7.060E-20 1.000
0.3480 6.630E-20 1.000
0.3485 6.260E-20 1.000
0.3490 6.000E-20 1.000
0.3495 6.470E-20 1.000
0.3500 9.060E-20 1.000
0.3505 1.495E-19 1.000
0.3510 1.694E-19 1.000
0.3515 1.407E-19 1.000
0.3520 1.242E-19 1.000
0.3525 1.281E-19 1.000
0.3530 1.634E-19 1.000
0.3535 2.849E-19 1.000
0.3540 4.873E-19 1.000
0.3545 4.434E-19 1.000
0.3550 2.764E-19 1.000
0.3555 1.640E-19 1.000
0.3560 1.113E-19 1.000
0.3565 9.350E-20 1.000
0.3570 9.450E-20 1.000
0.3575 1.008E-19 1.000
0.3580 9.840E-20 1.000
0.3585 9.020E-20 1.000
0.3590 8.370E-20 1.000
0.3595 7.670E-20 1.000
0.3600 6.870E-20 1.000
0.3605 6.320E-20 1.000
0.3610 6.050E-20 1.000
0.3615 5.950E-20 1.000
0.3620 5.980E-20 1.000
0.3625 6.350E-20 1.000
0.3630 7.390E-20 1.000
0.3635 9.220E-20 1.000
0.3640 1.149E-19 1.000
0.3645 1.271E-19 1.000
0.3650 1.282E-19 1.000
0.3655 1.319E-19 1.000
0.3660 1.484E-19 1.000
0.3665 1.843E-19 1.000
0.3670 2.508E-19 1.000
0.3675 3.518E-19 1.000
0.3680 4.356E-19 1.000
0.3685 4.137E-19 1.000
0.3690 3.145E-19 1.000
0.3695 2.172E-19 1.000
0.3699 1.505E-19 1.000
0.3701 9.490E-20 1.000
0.3720 7.960E-20 1.000
0.3730 6.300E-20 1.000
0.3740 4.590E-20 1.000
0.3750 3.550E-20 1.000
0.3760 3.360E-20 1.000
0.3770 3.660E-20 1.000
0.3780 4.330E-20 1.000
0.3790 5.660E-20 1.000
0.3800 7.210E-20 1.000
0.3810 9.130E-20 1.000
0.3820 1.244E-19 1.000
0.3830 1.703E-19 1.000
0.3840 1.947E-19 1.000
0.3850 1.609E-19 1.000
0.3860 1.052E-19 1.000
0.3870 6.590E-20 1.000
0.3880 4.300E-20 1.000
0.3890 2.810E-20 1.000
0.3900 1.710E-20 1.000
0.3910 9.920E-21 1.000
0.3920 7.310E-21 1.000
0.3930 5.970E-21 1.000
0.3940 5.280E-21 1.000
0.3950 4.030E-21 1.000
0.3960 2.370E-21 1.000
0.3970 7.100E-22 1.000
0.3980 0.000E+00 1.000
